# Atmospheric transmission in the optical: 310-1100nm
# 1.0mm H2O,  sec z = 1.0
# Adopted average extinction used for Rayleigh scattering,
# no dependence on H2O content included for Rayleigh scattering.
# Atmospheric absorption lines for 600-800nm are based on observations 
# from McDonald Observatory, scaled for H2O content and airmass.
# Atmospheric absorption lines for 800-1100nm are from ATRAN models
# run by Tom Geballe.
# No atmospheric absorption lines are included for wavelengths < 600nm
# 
# Author: Inger Jorgensen
# Created: 21 Feb 2001
# 
#  Table mkskytrans_opt.tab  Wed 17:07:00 21-Feb-2001
# wavelength tr_1010
#     [nm]         
      200.0  0.0000
      310.0  0.2830
      320.0  0.4700
      340.0  0.6250
      360.0  0.7110
      380.0  0.7590
      400.0  0.7940
      450.0  0.8550
      500.0  0.8870
      550.0  0.8950
      580.3  0.8979
      580.8  0.8979
      581.3  0.8980
      581.7  0.8980
      582.2  0.8980
      582.7  0.8980
      583.2  0.8981
      583.6  0.8981
      584.1  0.8981
      584.6  0.8982
      585.1  0.8982
      585.5  0.8982
      586.0  0.8983
      586.5  0.8983
      586.9  0.8983
      587.4  0.8984
      587.9  0.8984
      588.4  0.8984
      588.8  0.8985
      589.3  0.8985
      589.8  0.8985
      590.2  0.8986
      590.7  0.8986
      591.2  0.8987
      591.7  0.8987
      592.1  0.8987
      592.6  0.8988
      593.1  0.8988
      593.5  0.8988
      594.0  0.8989
      594.5  0.8989
      595.0  0.8990
      595.4  0.8990
      595.9  0.8990
      596.4  0.8991
      596.9  0.8991
      597.3  0.8992
      597.8  0.8992
      598.3  0.8992
      598.7  0.8993
      599.2  0.8993
      599.7  0.8994
      600.2  0.8994
      600.6  0.8995
      601.1  0.8995
      601.6  0.8995
      602.0  0.8996
      602.5  0.8996
      603.0  0.8997
      603.5  0.8997
      603.9  0.8998
      604.4  0.8998
      604.9  0.8999
      605.4  0.8999
      605.8  0.9000
      606.3  0.9000
      606.8  0.9001
      607.2  0.9001
      607.7  0.9001
      608.2  0.9002
      608.7  0.9002
      609.1  0.9003
      609.6  0.9003
      610.1  0.9004
      610.5  0.9004
      611.0  0.9005
      611.5  0.9005
      612.0  0.9006
      612.4  0.9006
      612.9  0.9007
      613.4  0.9008
      613.8  0.9008
      614.3  0.9009
      614.8  0.9009
      615.3  0.9010
      615.7  0.9010
      616.2  0.9011
      616.7  0.9011
      617.2  0.9012
      617.6  0.9012
      618.1  0.9013
      618.6  0.9013
      619.0  0.9014
      619.5  0.9015
      620.0  0.9015
      620.5  0.9008
      620.9  0.9003
      621.4  0.9016
      621.9  0.9004
      622.3  0.8993
      622.8  0.8991
      623.3  0.8979
      623.8  0.8977
      624.2  0.8980
      624.7  0.8970
      625.2  0.8992
      625.6  0.8986
      626.1  0.8965
      626.6  0.8961
      627.1  0.8894
      627.5  0.8829
      628.0  0.8795
      628.5  0.8790
      629.0  0.8824
      629.4  0.8825
      629.9  0.8841
      630.4  0.8858
      630.8  0.8867
      631.3  0.8902
      631.8  0.8913
      632.3  0.8927
      632.7  0.8941
      633.2  0.8955
      633.7  0.8957
      634.1  0.8962
      634.6  0.8977
      635.1  0.8981
      635.6  0.8987
      636.0  0.8992
      636.5  0.9004
      637.0  0.8989
      637.5  0.9003
      637.9  0.9039
      638.4  0.9039
      638.9  0.9040
      639.3  0.9041
      639.8  0.9041
      640.3  0.9042
      640.8  0.9043
      641.2  0.9043
      641.7  0.9044
      642.2  0.9045
      642.6  0.9045
      643.1  0.9046
      643.6  0.9047
      644.1  0.9047
      644.5  0.9048
      645.0  0.9049
      645.5  0.9050
      645.9  0.9050
      646.4  0.9051
      646.9  0.9052
      647.4  0.9052
      647.8  0.9053
      648.3  0.9054
      648.8  0.9055
      649.3  0.9055
      649.7  0.9056
      650.2  0.9057
      650.7  0.9057
      651.1  0.9058
      651.6  0.9059
      652.1  0.9060
      652.6  0.9060
      653.0  0.9061
      653.5  0.9062
      654.0  0.9063
      654.4  0.9063
      654.9  0.9064
      655.4  0.9065
      655.9  0.9066
      656.3  0.9066
      656.8  0.9067
      657.3  0.9068
      657.7  0.9069
      658.2  0.9070
      658.7  0.9070
      659.2  0.9071
      659.6  0.9072
      660.1  0.9073
      660.6  0.9073
      661.1  0.9074
      661.5  0.9075
      662.0  0.9076
      662.5  0.9077
      662.9  0.9077
      663.4  0.9078
      663.9  0.9079
      664.4  0.9080
      664.8  0.9081
      665.3  0.9081
      665.8  0.9082
      666.2  0.9083
      666.7  0.9084
      667.2  0.9085
      667.7  0.9085
      668.1  0.9086
      668.6  0.9087
      669.1  0.9088
      669.6  0.9089
      670.0  0.9089
      670.5  0.9090
      671.0  0.9091
      671.4  0.9092
      671.9  0.9093
      672.4  0.9094
      672.9  0.9094
      673.3  0.9095
      673.8  0.9096
      674.3  0.9097
      674.7  0.9098
      675.2  0.9099
      675.7  0.9100
      676.2  0.9100
      676.6  0.9101
      677.1  0.9102
      677.6  0.9103
      678.0  0.9104
      678.5  0.9105
      679.0  0.9105
      679.5  0.9106
      679.9  0.9107
      680.4  0.9108
      680.9  0.9109
      681.4  0.9110
      681.8  0.9111
      682.3  0.9112
      682.8  0.9112
      683.2  0.9113
      683.7  0.9114
      684.2  0.9115
      684.7  0.9116
      685.1  0.9117
      685.6  0.8972
      686.1  0.8447
      686.5  0.7980
      687.0  0.7870
      687.5  0.8007
      688.0  0.8201
      688.4  0.8314
      688.9  0.8337
      689.4  0.8413
      689.9  0.8503
      690.3  0.8609
      690.8  0.8746
      691.3  0.8850
      691.7  0.8936
      692.2  0.8977
      692.7  0.8994
      693.2  0.9001
      693.6  0.9037
      694.1  0.9062
      694.6  0.9058
      695.0  0.9081
      695.5  0.9120
      696.0  0.9138
      696.5  0.9138
      696.9  0.9139
      697.4  0.9140
      697.9  0.9141
      698.3  0.9142
      698.8  0.9143
      699.3  0.9144
      699.8  0.9145
      700.2  0.9146
      700.7  0.9147
      701.2  0.9148
      701.7  0.9149
      702.1  0.9150
      702.6  0.9151
      703.1  0.9152
      703.5  0.9152
      704.0  0.9153
      704.5  0.9154
      705.0  0.9155
      705.4  0.9156
      705.9  0.9157
      706.4  0.9158
      706.8  0.9159
      707.3  0.9160
      707.8  0.9161
      708.3  0.9162
      708.7  0.9163
      709.2  0.9164
      709.7  0.9165
      710.1  0.9166
      710.6  0.9167
      711.1  0.9168
      711.6  0.9169
      712.0  0.9170
      712.5  0.9171
      713.0  0.9172
      713.5  0.9173
      713.9  0.9169
      714.4  0.9115
      714.9  0.9096
      715.3  0.9103
      715.8  0.9036
      716.3  0.8916
      716.8  0.8778
      717.2  0.8640
      717.7  0.8589
      718.2  0.8575
      718.6  0.8525
      719.1  0.8503
      719.6  0.8556
      720.1  0.8736
      720.5  0.8882
      721.0  0.8938
      721.5  0.8992
      722.0  0.8924
      722.4  0.8811
      722.9  0.8752
      723.4  0.8714
      723.8  0.8687
      724.3  0.8704
      724.8  0.8712
      725.3  0.8739
      725.7  0.8746
      726.2  0.8754
      726.7  0.8716
      727.1  0.8723
      727.6  0.8730
      728.1  0.8781
      728.6  0.8802
      729.0  0.8808
      729.5  0.8831
      730.0  0.8838
      730.4  0.8844
      730.9  0.8909
      731.4  0.8961
      731.9  0.8967
      732.3  0.8973
      732.8  0.8981
      733.3  0.8987
      733.8  0.9009
      734.2  0.9015
      734.7  0.9021
      735.2  0.9020
      735.6  0.9026
      736.1  0.9031
      736.6  0.9065
      737.1  0.9071
      737.5  0.9115
      738.0  0.9116
      738.5  0.9117
      738.9  0.9118
      739.4  0.9155
      739.9  0.9156
      740.4  0.9157
      740.8  0.9194
      741.3  0.9195
      741.8  0.9196
      742.3  0.9197
      742.7  0.9235
      743.2  0.9236
      743.7  0.9237
      744.1  0.9238
      744.6  0.9239
      745.1  0.9240
      745.6  0.9241
      746.0  0.9242
      746.5  0.9243
      747.0  0.9244
      747.4  0.9245
      747.9  0.9246
      748.4  0.9247
      748.9  0.9248
      749.3  0.9249
      749.8  0.9250
      750.3  0.9251
      750.7  0.9252
      751.2  0.9253
      751.7  0.9254
      752.2  0.9255
      752.6  0.9256
      753.1  0.9257
      753.6  0.9258
      754.1  0.9259
      754.5  0.9260
      755.0  0.9261
      755.5  0.9213
      755.9  0.9142
      756.4  0.9145
      756.9  0.9134
      757.4  0.9152
      757.8  0.9008
      758.3  0.8282
      758.8  0.7105
      759.2  0.5915
      759.7  0.5155
      760.2  0.5270
      760.7  0.5957
      761.1  0.6361
      761.6  0.6418
      762.1  0.6279
      762.5  0.6119
      763.0  0.6241
      763.5  0.6620
      764.0  0.7053
      764.4  0.7473
      764.9  0.7864
      765.4  0.8161
      765.9  0.8363
      766.3  0.8565
      766.8  0.8789
      767.3  0.8982
      767.7  0.9122
      768.2  0.9170
      768.7  0.9179
      769.2  0.9181
      769.6  0.9196
      770.1  0.9284
      770.6  0.9296
      771.0  0.9297
      771.5  0.9298
      772.0  0.9299
      772.5  0.9300
      772.9  0.9301
      773.4  0.9302
      773.9  0.9303
      774.4  0.9304
      774.8  0.9305
      775.3  0.9306
      775.8  0.9307
      776.2  0.9308
      776.7  0.9309
      777.2  0.9310
      777.7  0.9311
      778.1  0.9312
      778.6  0.9313
      779.1  0.9315
      779.5  0.9316
      780.0  0.9317
      780.5  0.9318
      781.0  0.9319
      781.4  0.9320
      781.9  0.9321
      782.4  0.9322
      782.8  0.9323
      783.3  0.9324
      783.8  0.9325
      784.3  0.9326
      784.7  0.9327
      785.2  0.9328
      785.7  0.9329
      786.2  0.9330
      786.6  0.9331
      787.1  0.9332
      787.6  0.9333
      788.0  0.9334
      788.5  0.9335
      789.0  0.9336
      789.5  0.9337
      789.9  0.9338
      790.4  0.9340
      790.9  0.9341
      791.3  0.9342
      791.8  0.9343
      792.3  0.9344
      792.8  0.9345
      793.2  0.9346
      793.7  0.9347
      794.2  0.9348
      794.6  0.9349
      795.1  0.9350
      795.6  0.9351
      796.1  0.9352
      796.5  0.9353
      797.0  0.9354
      797.5  0.9355
      798.0  0.9356
      798.4  0.9357
      798.9  0.9358
      799.4  0.9359
      799.8  0.9360
      800.0  0.9343
      800.5  0.9347
      801.0  0.9348
      801.5  0.9351
      802.0  0.9354
      802.5  0.9354
      803.0  0.9355
      803.5  0.9357
      804.0  0.9359
      804.5  0.9360
      805.0  0.9364
      805.5  0.9369
      806.0  0.9370
      806.5  0.9371
      807.0  0.9372
      807.5  0.9373
      808.0  0.9374
      808.5  0.9373
      809.0  0.9373
      809.5  0.9372
      810.0  0.9373
      810.5  0.9375
      811.0  0.9372
      811.5  0.9369
      812.0  0.9368
      812.5  0.9363
      813.0  0.9348
      813.5  0.9323
      814.0  0.9316
      814.5  0.9309
      815.0  0.9290
      815.5  0.9266
      816.0  0.9228
      816.5  0.9179
      817.0  0.9200
      817.5  0.9228
      818.0  0.9210
      818.5  0.9242
      819.0  0.9250
      819.5  0.9245
      820.0  0.9265
      820.5  0.9330
      821.0  0.9374
      821.5  0.9367
      822.0  0.9339
      822.5  0.9238
      823.0  0.9100
      823.5  0.9169
      824.0  0.9307
      824.5  0.9346
      825.0  0.9370
      825.5  0.9357
      826.0  0.9334
      826.5  0.9361
      827.0  0.9370
      827.5  0.9319
      828.0  0.9292
      828.5  0.9303
      829.0  0.9309
      829.5  0.9327
      830.0  0.9350
      830.5  0.9350
      831.0  0.9365
      831.5  0.9376
      832.0  0.9349
      832.5  0.9355
      833.0  0.9388
      833.5  0.9396
      834.0  0.9397
      834.5  0.9410
      835.0  0.9419
      835.5  0.9417
      836.0  0.9417
      836.5  0.9422
      837.0  0.9427
      837.5  0.9428
      838.0  0.9430
      838.5  0.9434
      839.0  0.9436
      839.5  0.9439
      840.0  0.9440
      840.5  0.9440
      841.0  0.9439
      841.5  0.9441
      842.0  0.9444
      842.5  0.9448
      843.0  0.9449
      843.5  0.9448
      844.0  0.9449
      844.5  0.9451
      845.0  0.9454
      845.5  0.9456
      846.0  0.9456
      846.5  0.9457
      847.0  0.9459
      847.5  0.9460
      848.0  0.9460
      848.5  0.9461
      849.0  0.9462
      849.5  0.9463
      850.0  0.9464
      850.5  0.9465
      851.0  0.9465
      851.5  0.9465
      852.0  0.9467
      852.5  0.9469
      853.0  0.9471
      853.5  0.9471
      854.0  0.9472
      854.5  0.9473
      855.0  0.9474
      855.5  0.9475
      856.0  0.9477
      856.5  0.9478
      857.0  0.9479
      857.5  0.9480
      858.0  0.9481
      858.5  0.9482
      859.0  0.9483
      859.5  0.9484
      860.0  0.9485
      860.5  0.9486
      861.0  0.9487
      861.5  0.9488
      862.0  0.9489
      862.5  0.9490
      863.0  0.9491
      863.5  0.9492
      864.0  0.9493
      864.5  0.9494
      865.0  0.9495
      865.5  0.9495
      866.0  0.9496
      866.5  0.9497
      867.0  0.9498
      867.5  0.9499
      868.0  0.9500
      868.5  0.9501
      869.0  0.9502
      869.5  0.9503
      870.0  0.9504
      870.5  0.9505
      871.0  0.9506
      871.5  0.9507
      872.0  0.9507
      872.5  0.9508
      873.0  0.9509
      873.5  0.9510
      874.0  0.9511
      874.5  0.9512
      875.0  0.9513
      875.5  0.9514
      876.0  0.9515
      876.5  0.9516
      877.0  0.9516
      877.5  0.9517
      878.0  0.9518
      878.5  0.9519
      879.0  0.9520
      879.5  0.9521
      880.0  0.9522
      880.5  0.9522
      881.0  0.9523
      881.5  0.9524
      882.0  0.9525
      882.5  0.9525
      883.0  0.9526
      883.5  0.9527
      884.0  0.9528
      884.5  0.9529
      885.0  0.9530
      885.5  0.9530
      886.0  0.9529
      886.5  0.9530
      887.0  0.9532
      887.5  0.9533
      888.0  0.9532
      888.5  0.9533
      889.0  0.9536
      889.5  0.9536
      890.0  0.9536
      890.5  0.9537
      891.0  0.9538
      891.5  0.9538
      892.0  0.9536
      892.5  0.9536
      893.0  0.9528
      893.5  0.9523
      894.0  0.9524
      894.5  0.9516
      895.0  0.9496
      895.5  0.9463
      896.0  0.9439
      896.5  0.9396
      897.0  0.9372
      897.5  0.9370
      898.0  0.9377
      898.5  0.9315
      899.0  0.9174
      899.5  0.9208
      900.0  0.9306
      900.5  0.9284
      901.0  0.9319
      901.5  0.9302
      902.0  0.9266
      902.5  0.9284
      903.0  0.9349
      903.5  0.9463
      904.0  0.9507
      904.5  0.9500
      905.0  0.9504
      905.5  0.9493
      906.0  0.9479
      906.5  0.9414
      907.0  0.9278
      907.5  0.9244
      908.0  0.9319
      908.5  0.9333
      909.0  0.9359
      909.5  0.9394
      910.0  0.9374
      910.5  0.9353
      911.0  0.9388
      911.5  0.9435
      912.0  0.9388
      912.5  0.9401
      913.0  0.9356
      913.5  0.9269
      914.0  0.9316
      914.5  0.9445
      915.0  0.9429
      915.5  0.9276
      916.0  0.9296
      916.5  0.9445
      917.0  0.9456
      917.5  0.9358
      918.0  0.9362
      918.5  0.9436
      919.0  0.9479
      919.5  0.9484
      920.0  0.9499
      920.5  0.9538
      921.0  0.9533
      921.5  0.9509
      922.0  0.9502
      922.5  0.9526
      923.0  0.9534
      923.5  0.9525
      924.0  0.9512
      924.5  0.9503
      925.0  0.9501
      925.5  0.9519
      926.0  0.9526
      926.5  0.9529
      927.0  0.9541
      927.5  0.9499
      928.0  0.9414
      928.5  0.9383
      929.0  0.9380
      929.5  0.9318
      930.0  0.9197
      930.5  0.9087
      931.0  0.8911
      931.5  0.8677
      932.0  0.8436
      932.5  0.8391
      933.0  0.8442
      933.5  0.8364
      934.0  0.8029
      934.5  0.7688
      935.0  0.8066
      935.5  0.8146
      936.0  0.7932
      936.5  0.8257
      937.0  0.8160
      937.5  0.8131
      938.0  0.8224
      938.5  0.8328
      939.0  0.8743
      939.5  0.9174
      940.0  0.9216
      940.5  0.9141
      941.0  0.9059
      941.5  0.8995
      942.0  0.8982
      942.5  0.8710
      943.0  0.8287
      943.5  0.8475
      944.0  0.8205
      944.5  0.8057
      945.0  0.8731
      945.5  0.8782
      946.0  0.8419
      946.5  0.8548
      947.0  0.8890
      947.5  0.8954
      948.0  0.8727
      948.5  0.8659
      949.0  0.8994
      949.5  0.8682
      950.0  0.8250
      950.5  0.8502
      951.0  0.9090
      951.5  0.9094
      952.0  0.8655
      952.5  0.8559
      953.0  0.8875
      953.5  0.9092
      954.0  0.9007
      954.5  0.8767
      955.0  0.8847
      955.5  0.8933
      956.0  0.8920
      956.5  0.8878
      957.0  0.8843
      957.5  0.9139
      958.0  0.9148
      958.5  0.9023
      959.0  0.8937
      959.5  0.8917
      960.0  0.9129
      960.5  0.9216
      961.0  0.9254
      961.5  0.9324
      962.0  0.9235
      962.5  0.9152
      963.0  0.9284
      963.5  0.9342
      964.0  0.9206
      964.5  0.9191
      965.0  0.9286
      965.5  0.9423
      966.0  0.9385
      966.5  0.9290
      967.0  0.9353
      967.5  0.9464
      968.0  0.9491
      968.5  0.9489
      969.0  0.9555
      969.5  0.9570
      970.0  0.9534
      970.5  0.9516
      971.0  0.9551
      971.5  0.9532
      972.0  0.9516
      972.5  0.9520
      973.0  0.9519
      973.5  0.9479
      974.0  0.9431
      974.5  0.9426
      975.0  0.9425
      975.5  0.9422
      976.0  0.9417
      976.5  0.9461
      977.0  0.9538
      977.5  0.9566
      978.0  0.9529
      978.5  0.9507
      979.0  0.9520
      979.5  0.9507
      980.0  0.9516
      980.5  0.9534
      981.0  0.9587
      981.5  0.9605
      982.0  0.9596
      982.5  0.9580
      983.0  0.9580
      983.5  0.9604
      984.0  0.9618
      984.5  0.9612
      985.0  0.9607
      985.5  0.9619
      986.0  0.9633
      986.5  0.9635
      987.0  0.9630
      987.5  0.9626
      988.0  0.9632
      988.5  0.9638
      989.0  0.9639
      989.5  0.9637
      990.0  0.9633
      990.5  0.9636
      991.0  0.9639
      991.5  0.9640
      992.0  0.9640
      992.5  0.9638
      993.0  0.9636
      993.5  0.9639
      994.0  0.9641
      994.5  0.9642
      995.0  0.9642
      995.5  0.9642
      996.0  0.9642
      996.5  0.9642
      997.0  0.9642
      997.5  0.9642
      998.0  0.9642
      998.5  0.9642
      999.0  0.9642
      999.5  0.9641
     1000.0  0.9641
     1000.5  0.9642
     1001.0  0.9642
     1001.5  0.9639
     1002.0  0.9635
     1002.5  0.9637
     1003.0  0.9641
     1003.5  0.9642
     1004.0  0.9640
     1004.5  0.9641
     1005.0  0.9641
     1005.5  0.9641
     1006.0  0.9641
     1006.5  0.9642
     1007.0  0.9642
     1007.5  0.9641
     1008.0  0.9640
     1008.5  0.9640
     1009.0  0.9638
     1009.5  0.9636
     1010.0  0.9638
     1010.5  0.9641
     1011.0  0.9642
     1011.5  0.9642
     1012.0  0.9641
     1012.5  0.9641
     1013.0  0.9642
     1013.5  0.9643
     1014.0  0.9642
     1014.5  0.9642
     1015.0  0.9642
     1015.5  0.9642
     1016.0  0.9642
     1016.5  0.9642
     1017.0  0.9642
     1017.5  0.9642
     1018.0  0.9643
     1018.5  0.9643
     1019.0  0.9641
     1019.5  0.9640
     1020.0  0.9642
     1020.5  0.9642
     1021.0  0.9643
     1021.5  0.9642
     1022.0  0.9642
     1022.5  0.9642
     1023.0  0.9641
     1023.5  0.9640
     1024.0  0.9639
     1024.5  0.9641
     1025.0  0.9643
     1025.5  0.9643
     1026.0  0.9642
     1026.5  0.9643
     1027.0  0.9642
     1027.5  0.9641
     1028.0  0.9642
     1028.5  0.9642
     1029.0  0.9642
     1029.5  0.9643
     1030.0  0.9643
     1030.5  0.9643
     1031.0  0.9643
     1031.5  0.9643
     1032.0  0.9643
     1032.5  0.9643
     1033.0  0.9643
     1033.5  0.9643
     1034.0  0.9643
     1034.5  0.9643
     1035.0  0.9643
     1035.5  0.9643
     1036.0  0.9643
     1036.5  0.9643
     1037.0  0.9642
     1037.5  0.9642
     1038.0  0.9643
     1038.5  0.9643
     1039.0  0.9643
     1039.5  0.9643
     1040.0  0.9643
     1040.5  0.9643
     1041.0  0.9643
     1041.5  0.9643
     1042.0  0.9643
     1042.5  0.9643
     1043.0  0.9643
     1043.5  0.9643
     1044.0  0.9643
     1044.5  0.9643
     1045.0  0.9643
     1045.5  0.9643
     1046.0  0.9643
     1046.5  0.9643
     1047.0  0.9643
     1047.5  0.9643
     1048.0  0.9643
     1048.5  0.9643
     1049.0  0.9641
     1049.5  0.9640
     1050.0  0.9640
     1050.5  0.9642
     1051.0  0.9642
     1051.5  0.9642
     1052.0  0.9642
     1052.5  0.9642
     1053.0  0.9642
     1053.5  0.9642
     1054.0  0.9643
     1054.5  0.9643
     1055.0  0.9643
     1055.5  0.9643
     1056.0  0.9643
     1056.5  0.9643
     1057.0  0.9643
     1057.5  0.9643
     1058.0  0.9643
     1058.5  0.9643
     1059.0  0.9643
     1059.5  0.9643
     1060.0  0.9643
     1060.5  0.9643
     1061.0  0.9643
     1061.5  0.9643
     1062.0  0.9642
     1062.5  0.9641
     1063.0  0.9641
     1063.5  0.9640
     1064.0  0.9640
     1064.5  0.9639
     1065.0  0.9638
     1065.5  0.9639
     1066.0  0.9639
     1066.5  0.9640
     1067.0  0.9639
     1067.5  0.9636
     1068.0  0.9634
     1068.5  0.9636
     1069.0  0.9639
     1069.5  0.9639
     1070.0  0.9639
     1070.5  0.9640
     1071.0  0.9641
     1071.5  0.9641
     1072.0  0.9639
     1072.5  0.9638
     1073.0  0.9640
     1073.5  0.9641
     1074.0  0.9640
     1074.5  0.9633
     1075.0  0.9634
     1075.5  0.9640
     1076.0  0.9642
     1076.5  0.9640
     1077.0  0.9634
     1077.5  0.9627
     1078.0  0.9633
     1078.5  0.9639
     1079.0  0.9641
     1079.5  0.9637
     1080.0  0.9627
     1080.5  0.9624
     1081.0  0.9628
     1081.5  0.9628
     1082.0  0.9635
     1082.5  0.9639
     1083.0  0.9631
     1083.5  0.9616
     1084.0  0.9622
     1084.5  0.9631
     1085.0  0.9633
     1085.5  0.9622
     1086.0  0.9589
     1086.5  0.9588
     1087.0  0.9617
     1087.5  0.9630
     1088.0  0.9634
     1088.5  0.9631
     1089.0  0.9621
     1089.5  0.9616
     1090.0  0.9607
     1090.5  0.9598
     1091.0  0.9622
     1091.5  0.9636
     1092.0  0.9615
     1092.5  0.9561
     1093.0  0.9570
     1093.5  0.9613
     1094.0  0.9620
     1094.5  0.9602
     1095.0  0.9590
     1095.5  0.9588
     1096.0  0.9572
     1096.5  0.9599
     1097.0  0.9622
     1097.5  0.9597
     1098.0  0.9576
     1098.5  0.9582
     1099.0  0.9567
     1099.5  0.9527
     1100.0  0.9527
